Shimadzu measurement
Filename
742Labor_aprilis_14_Cu.dat
Identifier
2mN/s meres
Date 2016:4:14
Time 9:41
Indentsize=0 [æm]
 Time [s]         Load [mN]       Displ [æm] 
*****************************************************************

      0.050003     -0.009186     -0.002142
      0.100005     -0.008299     -0.007060
      0.150007     -0.009331     -0.003064
      0.200010     -0.010260     -0.001054
      0.250011     -0.011096      0.004967
      0.300014      0.082147      0.015451
      0.349985      0.265555      0.028732
      0.399988      0.520955      0.042333
      0.449990      0.844811      0.056100
      0.499993      1.229056      0.069772
      0.549994      1.674975      0.083602
      0.599996      2.174571      0.097881
      0.649999      2.710879      0.113295
      0.700001      3.296096      0.129671
      0.750003      3.925333      0.147399
      0.800005      4.580148      0.165979
      0.850007      5.261645      0.185204
      0.900010      5.971431      0.203971
      0.950012      6.712778      0.222632
      1.000014      7.472765      0.241074
      1.049986      8.250750      0.259198
      1.099987      9.044321      0.277280
      1.149990      9.857413      0.295323
      1.199992     10.690516      0.313882
      1.249995     11.528811      0.332538
      1.299997     12.380935      0.351098
      1.349999     13.237569      0.369389
      1.400001     14.106197      0.387500
      1.450003     14.984400      0.405874
      1.500005     15.880374      0.423998
      1.550008     16.770981      0.442018
      1.600010     17.669575      0.459884
      1.650013     18.577798      0.477795
      1.700014     19.481260      0.495502
      1.749986     20.394475      0.513086
      1.799988     21.315857      0.530254
      1.850021     22.232993      0.547110
      1.899992     23.169501      0.563561
      1.949994     24.095367      0.579710
      1.999997     25.022032      0.594916
      2.049998     25.957350      0.610066
      2.100000     26.894963      0.625044
      2.150003     27.828538      0.639928
      2.200005     28.776179      0.654910
      2.250007     29.716337      0.669737
      2.300010     30.661358      0.684363
      2.350011     31.613197      0.698808
      2.400014     32.553471      0.713335
      2.449985     33.499207      0.727874
      2.499988     34.444365      0.742179
      2.549990     35.393275      0.756153
      2.599993     36.338238      0.769767
      2.649994     37.285752      0.783667
      2.699996     38.232510      0.797032
      2.749999     39.176757      0.810465
      2.800001     40.116912      0.823897
      2.850003     41.066813      0.837023
      2.900006     42.016331      0.849996
      2.950007     42.965502      0.862771
      3.000010     43.917414      0.875184
      3.050012     44.864468      0.887576
      3.100014     45.819357      0.900072
      3.149986     46.772143      0.913027
      3.199987     47.730360      0.925724
      3.249990     48.683088      0.938372
      3.299992     49.640643      0.951160
      3.349995     50.598879      0.963645
      3.399997     51.553456      0.975919
      3.449999     52.509013      0.987942
      3.500001     53.463619      1.000167
      3.550003     54.408216      1.012024
      3.600005     55.362725      1.023611
      3.650008     56.313947      1.034955
      3.700010     57.268925      1.045835
      3.750013     58.224233      1.056482
      3.800014     59.176784      1.067041
      3.849986     60.127466      1.078009
      3.899988     61.082568      1.088613
      3.949990     62.038597      1.099560
      3.999993     62.992408      1.110206
      4.049995     63.950937      1.120947
      4.099997     64.912492      1.131651
      4.149999     65.871887      1.142323
      4.200001     66.831169      1.152782
      4.250004     67.780584      1.163293
      4.300006     68.728443      1.173852
      4.350008     69.679173      1.184515
      4.400010     70.634930      1.194722
      4.450012     71.589717      1.205007
      4.500015     72.532644      1.215301
      4.549986     73.488092      1.225482
      4.599989     74.444432      1.235987
      4.649990     75.406458      1.245929
      4.699993     76.363226      1.255977
      4.749995     77.311598      1.266118
      4.799997     78.274387      1.276038
      4.850000     79.236725      1.285699
      4.900002     80.196824      1.295248
      4.950003     81.158571      1.304880
      5.000006     82.109593      1.314403
      5.050008     83.068054      1.323890
      5.100011     84.028327      1.333282
      5.150013     84.982296      1.342651
      5.199985     85.938525      1.351937
      5.249986     86.896179      1.361027
      5.299988     87.852673      1.370124
      5.349991     88.813617      1.379226
      5.399993     89.771242      1.388090
      5.449996     90.728320      1.396739
      5.499998     91.675752      1.405194
      5.549999     92.635864      1.413841
      5.600002     93.588467      1.422356
      5.650004     94.540415      1.430874
      5.700006     95.502151      1.439761
      5.750009     96.459878      1.448736
      5.800011     97.413996      1.457790
      5.850013     98.371581      1.466366
      5.900015     99.332897      1.474633
      5.949987    100.290856      1.482989
      5.999989    101.247014      1.491242
      6.049991    102.207045      1.499708
      6.099994    103.165680      1.508120
      6.149995    104.124277      1.516302
      6.199998    105.073686      1.524520
      6.250000    106.030084      1.533014
      6.300002    106.976904      1.541453
      6.350005    107.925478      1.550207
      6.400006    108.878074      1.558819
      6.450008    109.835509      1.566935
      6.500011    110.788144      1.575217
      6.550013    111.739512      1.583525
      6.599985    112.703776      1.591612
      6.649987    113.659506      1.599990
      6.699989    114.609997      1.608323
      6.749991    115.561875      1.616433
      6.799994    116.514392      1.624403
      6.849996    117.477861      1.632187
      6.899998    118.434705      1.640108
      6.950001    119.389861      1.647847
      7.000002    120.338614      1.655606
      7.050004    121.297473      1.663565
      7.100007    122.252611      1.671400
      7.150009    123.215387      1.679184
      7.200042    124.167945      1.686556
      7.250013    125.127178      1.694106
      7.299985    126.077159      1.701389
      7.349986    127.029190      1.708799
      7.399988    127.984895      1.716383
      7.449991    128.939026      1.724002
      7.499993    129.896012      1.731836
      7.549996    130.857398      1.739619
      7.599998    131.806265      1.747661
      7.649999    132.770721      1.755509
      7.700002    133.723571      1.763244
      7.750004    134.676353      1.771060
      7.800006    135.624800      1.778583
      7.850009    136.574840      1.786391
      7.900011    137.527533      1.794028
      7.950013    138.484446      1.801513
      8.000015    139.439052      1.809286
      8.049987    140.397077      1.816831
      8.099989    141.355126      1.824477
      8.149991    142.313196      1.832212
      8.199994    143.268845      1.839601
      8.249995    144.228418      1.846861
      8.299998    145.186028      1.853884
      8.350000    146.146757      1.861425
      8.400002    147.096252      1.868639
      8.450005    148.059443      1.875865
      8.500006    149.014816      1.882978
      8.550008    149.972310      1.890112
      8.600011    150.926830      1.897204
      8.650013    151.881114      1.904198
      8.699985    152.837016      1.911407
      8.749987    153.790714      1.918323
      8.799989    154.749752      1.924914
      8.849991    155.702608      1.931638
      8.899994    156.666382      1.938179
      8.949996    157.629605      1.944981
      8.999998    158.582567      1.952019
      9.050001    159.537890      1.959207
      9.100002    160.499612      1.966226
      9.150004    161.457936      1.972787
      9.200007    162.414423      1.978936
      9.250009    163.371088      1.985142
      9.300011    164.325472      1.991642
      9.350014    165.280854      1.998103
      9.399985    166.248122      2.004589
      9.449987    167.192516      2.011281
      9.499989    168.155388      2.017914
      9.549992    169.112917      2.024861
      9.599994    170.078454      2.031723
      9.649997    171.035329      2.038204
      9.699998    171.989292      2.044770
      9.750000    172.949178      2.050923
      9.800003    173.902799      2.057498
      9.850005    174.866650      2.063904
      9.900007    175.834215      2.070280
      9.950010    176.791084      2.076873
     10.000011    177.750535      2.083600
     10.050014    178.717802      2.090020
     10.099985    179.670741      2.096531
     10.149988    180.638251      2.103123
     10.199990    181.604226      2.109850
     10.249991    182.566379      2.116453
     10.299994    183.531194      2.123006
     10.349996    184.394035      2.129209
     10.399999    185.170592      2.135219
     10.450001    185.871325      2.140811
     10.500003    186.496490      2.146210
     10.550005    187.068905      2.151497
     10.600007    187.578586      2.156682
     10.650009    188.037298      2.161532
     10.700012    188.454411      2.166018
     10.750014    188.828593      2.169751
     10.799986    189.161694      2.173294
     10.849987    189.460875      2.176910
     10.899990    189.736851      2.180286
     10.949992    189.981568      2.183508
     10.999995    190.199372      2.186285
     11.049997    190.403940      2.188968
     11.099999    190.581948      2.191383
     11.150001    190.742765      2.193617
     11.200003    190.890553      2.195810
     11.250005    191.021730      2.198151
     11.300008    191.136128      2.200258
     11.350010    191.245800      2.201970
     11.400012    191.339622      2.203207
     11.450014    191.428334      2.204808
     11.499986    191.506954      2.206127
     11.549988    191.580154      2.207680
     11.599990    191.638099      2.209078
     11.649993    191.696353      2.210580
     11.699994    191.742678      2.211871
     11.749997    191.791085      2.213155
     11.799999    191.829768      2.214738
     11.850001    191.865193      2.215918
     11.900004    191.898296      2.217347
     11.950006    191.923206      2.218632
     12.000007    191.956002      2.219850
     12.050010    191.980634      2.221130
     12.100012    192.002194      2.222220
     12.150015    192.017324      2.223385
     12.199986    192.038877      2.224311
     12.249989    192.058884      2.225327
     12.299990    192.075060      2.226486
     12.349992    192.083514      2.227407
     12.399995    192.091123      2.228297
     12.449997    192.005807      2.229098
     12.500000    191.833195      2.229819
     12.550001    191.578967      2.230407
     12.600003    191.251282      2.231119
     12.650005    190.859319      2.231455
     12.700007    190.414388      2.231574
     12.750009    189.916292      2.231803
     12.800012    189.375841      2.232131
     12.850014    188.785674      2.231938
     12.899986    188.171514      2.231460
     12.949987    187.511957      2.230968
     12.999990    186.809712      2.230586
     13.049992    186.100175      2.230182
     13.099995    185.360883      2.229818
     13.149997    184.594200      2.229185
     13.199999    183.813241      2.228493
     13.250001    183.009669      2.227810
     13.300003    182.191238      2.227134
     13.350005    181.363095      2.226220
     13.400008    180.520720      2.225398
     13.450010    179.663703      2.224718
     13.500012    178.806938      2.224107
     13.550014    177.932088      2.223618
     13.599986    177.045844      2.222995
     13.649988    176.148736      2.222068
     13.699990    175.254668      2.221294
     13.749993    174.352349      2.220293
     13.799995    173.442603      2.219514
     13.849997    172.526175      2.218630
     13.899999    171.604952      2.218139
     13.950001    170.672091      2.217637
     14.000004    169.753168      2.217062
     14.050006    168.822377      2.216301
     14.100007    167.891279      2.215555
     14.150010    166.962348      2.215006
     14.200012    166.023158      2.214511
     14.250015    165.090606      2.213883
     14.299986    164.145717      2.213379
     14.349989    163.209866      2.212681
     14.399990    162.266280      2.211992
     14.449992    161.321837      2.211311
     14.499995    160.374180      2.210270
     14.549997    159.430955      2.209395
     14.600000    158.482565      2.208546
     14.650002    157.537459      2.207843
     14.700003    156.578219      2.207210
     14.750006    155.630063      2.206336
     14.800008    154.680896      2.205732
     14.850010    153.723495      2.205005
     14.900013    152.780046      2.204534
     14.949985    151.830842      2.203622
     14.999986    150.878901      2.202679
     15.049988    149.932431      2.201586
     15.099991    148.979898      2.200603
     15.149993    148.032286      2.199717
     15.199996    147.076894      2.198921
     15.249998    146.119993      2.198326
     15.299999    145.170281      2.197607
     15.350002    144.213609      2.196839
     15.400004    143.253727      2.196086
     15.450006    142.304992      2.195530
     15.500009    141.338824      2.194786
     15.550010    140.384433      2.193933
     15.600012    139.418058      2.193288
     15.650015    138.459207      2.192524
     15.699987    137.502246      2.191653
     15.749989    136.541492      2.190808
     15.799991    135.588311      2.190170
     15.849993    134.632181      2.189351
     15.899995    133.683161      2.188798
     15.949998    132.730164      2.188056
     16.000000    131.778472      2.187265
     16.050002    130.829174      2.186371
     16.100005    129.878979      2.185444
     16.150006    128.921263      2.184610
     16.200008    127.964102      2.183493
     16.250011    127.006220      2.182610
     16.300013    126.055624      2.181632
     16.349985    125.102430      2.180568
     16.399987    124.144457      2.179550
     16.449989    123.188285      2.178817
     16.499991    122.238617      2.178157
     16.549993    121.277103      2.177442
     16.599996    120.320797      2.176492
     16.649998    119.367347      2.175821
     16.700001    118.414635      2.175155
     16.750002    117.469913      2.174618
     16.800004    116.517734      2.173706
     16.850007    115.556400      2.172703
     16.900009    114.601477      2.172105
     16.950011    113.644388      2.171323
     17.000014    112.689623      2.170314
     17.049985    111.727794      2.169101
     17.099987    110.775476      2.167826
     17.149989    109.821343      2.166556
     17.199992    108.875952      2.165291
     17.249994    107.923780      2.164275
     17.299995    106.970999      2.163299
     17.349998    106.015227      2.162360
     17.400000    105.067752      2.161332
     17.450003    104.114314      2.159979
     17.500005    103.156121      2.158884
     17.550007    102.206465      2.157654
     17.600009    101.256559      2.156791
     17.650011    100.299103      2.155526
     17.700013     99.344007      2.154266
     17.749985     98.391036      2.152826
     17.799988     97.441807      2.151409
     17.849990     96.477637      2.150255
     17.899991     95.529315      2.148850
     17.949993     94.570844      2.147830
     17.999995     93.610563      2.147095
     18.049998     92.649262      2.146311
     18.100000     91.692537      2.145423
     18.150002     90.736878      2.144257
     18.200005     89.776687      2.143330
     18.250006     88.823401      2.142435
     18.300008     87.871449      2.141324
     18.350011     86.909710      2.140385
     18.400013     85.950149      2.139174
     18.449985     85.001094      2.138328
     18.499987     84.041962      2.137262
     18.549989     83.086579      2.136546
     18.599991     82.127245      2.135474
     18.649993     81.169239      2.134449
     18.699996     80.220973      2.133465
     18.749998     79.262551      2.132458
     18.800001     78.309638      2.131673
     18.850002     77.340930      2.130601
     18.900004     76.389747      2.129208
     18.950007     75.434803      2.127772
     19.000009     74.474644      2.126357
     19.050011     73.518337      2.125389
     19.100014     72.557561      2.124152
     19.149985     71.598867      2.123099
     19.199987     70.647540      2.122090
     19.249989     69.692467      2.120939
     19.299992     68.740127      2.119902
     19.349994     67.792687      2.118420
     19.399995     66.828906      2.117513
     19.449998     65.871169      2.115903
     19.500000     64.918263      2.114699
     19.550003     63.965430      2.113432
     19.600005     63.013886      2.111986
     19.650007     62.058617      2.110685
     19.700009     61.100607      2.109148
     19.750011     60.142571      2.107826
     19.800013     59.182071      2.106452
     19.849985     58.231560      2.105033
     19.899988     57.273560      2.103634
     19.949990     56.322857      2.102192
     19.999991     55.361022      2.101077
     20.049994     54.400764      2.099524
     20.099996     53.449861      2.097821
     20.149999     52.503104      2.096227
     20.200001     51.544210      2.094244
     20.250003     50.586599      2.092398
     20.300005     49.635027      2.090309
     20.350007     48.677292      2.088429
     20.400009     47.721334      2.086554
     20.450012     46.767587      2.084805
     20.500014     45.812168      2.082927
     20.549986     44.854022      2.080991
     20.599987     43.901358      2.078945
     20.649990     42.952406      2.076797
     20.699992     41.992756      2.074498
     20.749994     41.039349      2.072124
     20.799997     40.086066      2.069682
     20.849999     39.137777      2.067424
     20.900001     38.182998      2.065147
     20.950003     37.221767      2.062975
     21.000005     36.270597      2.060350
     21.050008     35.315056      2.057926
     21.100010     34.356191      2.055683
     21.150011     33.399216      2.053359
     21.200014     32.437840      2.051024
     21.249986     31.484099      2.048983
     21.299988     30.531126      2.046841
     21.349990     29.569689      2.044608
     21.399993     28.616504      2.042171
     21.449994     27.664642      2.039978
     21.499996     26.707256      2.037638
     21.549999     25.752834      2.035532
     21.600001     24.796197      2.032965
     21.650004     23.835124      2.030289
     21.700006     22.878604      2.027331
     21.750007     21.920689      2.024485
     21.800010     20.959687      2.021802
     21.850012     20.002010      2.019571
     21.900014     19.043664      2.016952
     21.949986     18.094482      2.014656
     21.999989     17.139508      2.011980
     22.049990     16.183594      2.009449
     22.099992     15.229887      2.006682
     22.149995     14.272672      2.003643
     22.199997     13.314741      2.000359
     22.250000     12.350063      1.997281
     22.300002     11.394571      1.994023
     22.350003     10.448567      1.990419
     22.400006      9.489130      1.981438
     22.450008      8.554834      1.954922
     22.500010      7.610818      1.866970
     22.550013      6.659272      1.669464
     22.600014      5.890773      1.392281
     22.649986      5.291289      1.108697
     22.699988      4.847580      0.913592
     22.749991      4.538574      0.895898
     22.799993      4.370335      0.950958
     22.849995      4.311694      1.032983
     22.899997      4.354744      1.119074
     22.949999      4.483212      1.202477
     23.000002      4.697101      1.278760
     23.050004      4.993363      1.349002
     23.100006      5.347280      1.412585
     23.150009      5.765905      1.469933
     23.200010      6.229949      1.521789
     23.250011      6.744025      1.569193
     23.300014      7.306183      1.611856
     23.349986      7.909172      1.650192
     23.399988      8.542806      1.685060
     23.449990      9.208293      1.716869
     23.499993      9.906110      1.746108
     23.549994     10.626920      1.772544
     23.599996     11.374527      1.796276
     23.649999     12.143811      1.818001
     23.700001     12.930772      1.837859
     23.750004     13.731812      1.855608
     23.800006     14.548574      1.871827
     23.850007     15.392915      1.886791
     23.900010     16.240104      1.900563
     23.950012     17.093517      1.913324
     24.000014     17.953754      1.924931
     24.049986     18.840883      1.935988
     24.099989     19.727802      1.945939
     24.149990     20.603545      1.955261
     24.199992     21.502189      1.964078
     24.249995     22.398251      1.972258
     24.299997     23.302363      1.979497
     24.350000     24.219826      1.986196
     24.400002     25.137097      1.992469
     24.450003     26.058467      1.998664
     24.500006     26.978644      2.004484
     24.550008     27.905072      2.009844
     24.600010     28.836514      2.014912
     24.650013     29.768198      2.019900
     24.699985     30.708643      2.024512
     24.749986     31.643546      2.028967
     24.799988     32.578344      2.033038
     24.849991     33.527696      2.037252
     24.899993     34.471226      2.041410
     24.949995     35.402801      2.045274
     24.999997     36.344980      2.048691
     25.049999     37.288158      2.052011
     25.100002     38.231623      2.054998
