Shimadzu measurement
Filename
743Labor_aprilis_14_Ni.dat
Identifier
2mN/s meres
Date 2016:4:14
Time 9:50
Indentsize=0 [æm]
 Time [s]         Load [mN]       Displ [æm] 
*****************************************************************

      0.050002     -0.004532      0.002918
      0.099974     -0.013493      0.003775
      0.149976     -0.037428      0.006743
      0.199978     -0.033944      0.010513
      0.249981      0.063797      0.015065
      0.299983      0.253694      0.020139
      0.349985      0.493572      0.025926
      0.399987      0.811393      0.032844
      0.449989      1.195700      0.040656
      0.499992      1.641065      0.049214
      0.549994      2.118189      0.058808
      0.599995      2.660516      0.069212
      0.649998      3.251152      0.080468
      0.700000      3.880993      0.092246
      0.750003      4.536962      0.104190
      0.799974      5.207901      0.116709
      0.849977      5.921612      0.129197
      0.899978      6.657337      0.141901
      0.949980      7.427523      0.154799
      0.999983      8.207972      0.167690
      1.049985      8.993996      0.180817
      1.099988      9.813113      0.194218
      1.149990     10.640652      0.207867
      1.199991     11.468447      0.221310
      1.249994     12.315392      0.234812
      1.299996     13.175910      0.247941
      1.349998     14.052918      0.260856
      1.400001     14.933779      0.273639
      1.449973     15.815056      0.286181
      1.499974     16.704642      0.298812
      1.549976     17.600486      0.311400
      1.599979     18.510507      0.324256
      1.649981     19.427184      0.337230
      1.699983     20.337643      0.349760
      1.749986     21.258987      0.362076
      1.799987     22.181582      0.374197
      1.849990     23.106523      0.385656
      1.899992     24.044562      0.396701
      1.949994     24.974859      0.407924
      1.999997     25.912835      0.419123
      2.049998     26.852840      0.430178
      2.100000     27.784906      0.441410
      2.150003     28.722643      0.452556
      2.199975     29.671589      0.463503
      2.249977     30.617195      0.474149
      2.299978     31.558573      0.484585
      2.349981     32.500419      0.495320
      2.399983     33.443908      0.506141
      2.449985     34.389484      0.517101
      2.499987     35.435819      0.528002
      2.549989     36.367144      0.538424
      2.599992     37.304214      0.548719
      2.649994     38.245846      0.558839
      2.699995     39.181207      0.568680
      2.749998     40.124351      0.578391
      2.800000     41.069008      0.587741
      2.850003     42.013195      0.597071
      2.899974     42.963062      0.606690
      2.949977     43.919262      0.616628
      2.999978     44.863462      0.626427
      3.049980     45.812120      0.635979
      3.099983     46.757466      0.645307
      3.149985     47.698612      0.654314
      3.199988     48.644521      0.663030
      3.249990     49.598990      0.671484
      3.299991     50.550787      0.679826
      3.349994     51.502621      0.687883
      3.399996     52.455709      0.696172
      3.449998     53.414807      0.704364
      3.500001     54.366498      0.712653
      3.549973     55.312133      0.720784
      3.599974     56.262693      0.729384
      3.649976     57.207920      0.738222
      3.699979     58.163606      0.747031
      3.749981     59.118940      0.755936
      3.799983     60.065412      0.764683
      3.849986     61.016726      0.773226
      3.899987     61.971176      0.781892
      3.949990     62.933943      0.790607
      3.999992     63.891987      0.799121
      4.049994     64.847001      0.807456
      4.099997     65.805393      0.815384
      4.149999     66.761330      0.823008
      4.200000     67.708345      0.830602
      4.250003     68.661979      0.838169
      4.299975     69.619128      0.845589
      4.349977     70.575167      0.853245
      4.399979     71.530209      0.860867
      4.449981     72.484963      0.868764
      4.499983     73.441899      0.876726
      4.549986     74.387371      0.884625
      4.599988     75.346940      0.892160
      4.649990     76.303938      0.899614
      4.699993     77.258621      0.907299
      4.749994     78.214273      0.914887
      4.799996     79.173238      0.922326
      4.849999     80.118095      0.929693
      4.900001     81.080162      0.936933
      4.949973     82.031473      0.943694
      4.999975     82.987752      0.950633
      5.049977     83.948503      0.957488
      5.099979     84.902901      0.964635
      5.149981     85.858907      0.971677
      5.199984     86.809646      0.978625
      5.249986     87.762358      0.985550
      5.299989     88.722340      0.992576
      5.349990     89.680929      0.999632
      5.399992     90.636434      1.006532
      5.449995     91.595268      1.013596
      5.499997     92.546720      1.020503
      5.549999     93.501295      1.027634
      5.600002     94.455019      1.034785
      5.649973     95.416521      1.041527
      5.699975     96.372817      1.048143
      5.749977     97.329309      1.054952
      5.799980     98.282318      1.061874
      5.849982     99.240734      1.068653
      5.899983    100.199746      1.075669
      5.949986    101.158074      1.082595
      5.999988    102.115784      1.089194
      6.049991    103.070499      1.095804
      6.099993    104.020686      1.102364
      6.149995    104.970460      1.108939
      6.199997    105.924745      1.115467
      6.249999    106.879429      1.122197
      6.300001    107.836912      1.128864
      6.349973    108.792033      1.135475
      6.399976    109.735871      1.142035
      6.449978    110.695800      1.148488
      6.499979    111.645798      1.154968
      6.549982    112.602115      1.161226
      6.599984    113.553745      1.167470
      6.649987    114.504818      1.173821
      6.699989    115.465765      1.180514
      6.749991    116.419730      1.187270
      6.799993    117.369853      1.194205
      6.849995    118.327505      1.201239
      6.899997    119.281555      1.208120
      6.950000    120.244573      1.214374
      7.000002    121.207725      1.220185
      7.049974    122.160013      1.225965
      7.099975    123.124496      1.231593
      7.149978    124.079201      1.237453
      7.199980    125.025718      1.243337
      7.249982    125.983786      1.249365
      7.299985    126.930887      1.255583
      7.349987    127.886429      1.261424
      7.399989    128.845905      1.267108
      7.449991    129.800988      1.272590
      7.499993    130.749676      1.278073
      7.549996    131.699932      1.283618
      7.599998    132.652820      1.289158
      7.649999    133.617232      1.294937
      7.700002    134.571264      1.300383
      7.749973    135.531823      1.306199
      7.799975    136.494594      1.312106
      7.849977    137.448370      1.317849
      7.899980    138.406257      1.323384
      7.949982    139.362350      1.328914
      7.999984    140.319882      1.334563
      8.049986    141.276267      1.339953
      8.099988    142.219412      1.345108
      8.149991    143.176886      1.349992
      8.199993    144.130168      1.354998
      8.249995    145.090661      1.360175
      8.300058    146.051543      1.365384
      8.349999    147.010942      1.370621
      8.400001    147.961683      1.375883
      8.449973    148.910735      1.381047
      8.499976    149.869864      1.386182
      8.549978    150.829517      1.391354
      8.599979    151.788421      1.396679
      8.649982    152.747871      1.402144
      8.699984    153.704152      1.407306
      8.749987    154.664903      1.412806
      8.799989    155.618692      1.418001
      8.849991    156.568046      1.423286
      8.899993    157.526226      1.428592
      8.949995    158.486246      1.433795
      8.999997    159.437545      1.439149
      9.050000    160.393814      1.444334
      9.100002    161.350892      1.449549
      9.149974    162.306259      1.454549
      9.199975    163.263136      1.459658
      9.249978    164.216490      1.464745
      9.299980    165.177659      1.469934
      9.349982    166.137318      1.475214
      9.399985    167.099889      1.480271
      9.449987    168.065082      1.485311
      9.499989    169.021036      1.490458
      9.549991    169.982716      1.495211
      9.599993    170.936729      1.500039
      9.649996    171.890558      1.504811
      9.699998    172.853986      1.509533
      9.749999    173.812625      1.514394
      9.800002    174.774889      1.519256
      9.849974    175.731260      1.524243
      9.899976    176.693314      1.529219
      9.949978    177.654989      1.534308
      9.999981    178.612051      1.539132
     10.049982    179.574726      1.543902
     10.099984    180.535740      1.548438
     10.149987    181.490376      1.552948
     10.199989    182.456971      1.557556
     10.249992    183.325686      1.561826
     10.299994    184.099595      1.566095
     10.349995    184.802217      1.570243
     10.399998    185.437018      1.574160
     10.450000    186.005287      1.577929
     10.500002    186.522833      1.581443
     10.549974    186.987403      1.584605
     10.599977    187.403686      1.587696
     10.649978    187.774067      1.590599
     10.699980    188.116566      1.592968
     10.749983    188.416880      1.595223
     10.799985    188.696319      1.597312
     10.849988    188.949644      1.599437
     10.899990    189.175196      1.601655
     10.949991    189.376971      1.603407
     10.999994    189.553686      1.605227
     11.049996    189.717003      1.606988
     11.099998    189.862156      1.608451
     11.150001    189.989132      1.609828
     11.199973    190.107683      1.611373
     11.249974    190.210717      1.612763
     11.299976    190.308330      1.614015
     11.349979    190.388247      1.615385
     11.399981    190.466886      1.616557
     11.449983    190.538883      1.617856
     11.499985    190.604900      1.618964
     11.549987    190.657602      1.619901
     11.599990    190.703812      1.620927
     11.649992    190.754557      1.621850
     11.699994    190.791073      1.622742
     11.749997    190.833702      1.623545
     11.799998    190.870237      1.624206
     11.850000    190.895795      1.624923
     11.900003    190.916355      1.625630
     11.949975    190.932418      1.626266
     11.999977    190.959082      1.626961
     12.049979    190.975755      1.627280
     12.099981    190.991981      1.627751
     12.149983    191.011468      1.627992
     12.199985    191.025344      1.628453
     12.249988    191.037832      1.628746
     12.299990    191.041747      1.629192
     12.349993    190.954938      1.629411
     12.399994    190.774268      1.629364
     12.449996    190.518280      1.629565
     12.499999    190.196337      1.629625
     12.550001    189.810152      1.629800
     12.599973    189.373472      1.630019
     12.649975    188.877919      1.630033
     12.699977    188.329992      1.630107
     12.749979    187.735537      1.630051
     12.799981    187.125453      1.629818
     12.849984    186.458578      1.629791
     12.899986    185.777823      1.629583
     12.950018    185.055279      1.629092
     12.999990    184.320759      1.628710
     13.049991    183.544333      1.628428
     13.099994    182.763151      1.628174
     13.149996    181.967312      1.627701
     13.199998    181.152179      1.627336
     13.250001    180.320290      1.627008
     13.299973    179.474544      1.626469
     13.349974    178.619986      1.625922
     13.399976    177.764824      1.625430
     13.449979    176.883482      1.624805
     13.499981    176.011537      1.623997
     13.549983    175.124246      1.623393
     13.599985    174.224365      1.622727
     13.649987    173.328411      1.622066
     13.699990    172.412187      1.621593
     13.749992    171.496031      1.620741
     13.799994    170.573223      1.620401
     13.849997    169.651142      1.619851
     13.899998    168.725442      1.618990
     13.950000    167.797096      1.618337
     14.000003    166.859043      1.617566
     14.049975    165.925073      1.616811
     14.099977    164.981960      1.616315
     14.149979    164.041603      1.615502
     14.199981    163.108001      1.614648
     14.249983    162.166439      1.614002
     14.299985    161.221985      1.613359
     14.349988    160.279813      1.612476
     14.399990    159.339083      1.611864
     14.449993    158.397820      1.611191
     14.499994    157.453636      1.610646
     14.549996    156.506823      1.610156
     14.599999    155.560085      1.609471
     14.650001    154.603650      1.608976
     14.699973    153.651914      1.608042
     14.749975    152.703797      1.607446
     14.799977    151.741848      1.606849
     14.849979    150.789423      1.606189
     14.899981    149.844348      1.605473
     14.949984    148.890020      1.604524
     14.999986    147.938349      1.603730
     15.049988    146.982357      1.602650
     15.099990    146.027358      1.601861
     15.149992    145.076915      1.601212
     15.199995    144.120196      1.600627
     15.249997    143.166985      1.600162
     15.299999    142.208386      1.599500
     15.350001    141.251040      1.599087
     15.399973    140.296654      1.598410
     15.449975    139.343101      1.597617
     15.499977    138.390297      1.596965
     15.549980    137.442440      1.596256
     15.599982    136.488659      1.595740
     15.649983    135.535040      1.595154
     15.699986    134.575463      1.594443
     15.749988    133.622732      1.593681
     15.799991    132.662122      1.592873
     15.849993    131.709071      1.592146
     15.899995    130.747563      1.591064
     15.949997    129.797367      1.589969
     15.999999    128.840870      1.589166
     16.050001    127.889079      1.588260
     16.099973    126.929926      1.587384
     16.149976    125.976355      1.586657
     16.199978    125.029639      1.586063
     16.249979    124.070782      1.585346
     16.299982    123.118087      1.584517
     16.349984    122.155069      1.583588
     16.399986    121.199851      1.582874
     16.449989    120.243107      1.582109
     16.499991    119.295366      1.581665
     16.549993    118.336807      1.580960
     16.599995    117.381939      1.580326
     16.649997    116.427342      1.579938
     16.700000    115.469326      1.579528
     16.750002    114.513116      1.579098
     16.799973    113.559752      1.578588
     16.849975    112.607119      1.578130
     16.899978    111.647819      1.577657
     16.949980    110.698998      1.576925
     16.999982    109.741298      1.576145
     17.049985    108.784762      1.575504
     17.099986    107.824391      1.574622
     17.149988    106.870944      1.573889
     17.199991    105.915184      1.573290
     17.249993    104.962226      1.572568
     17.299996    104.012398      1.571918
     17.349998    103.055013      1.571029
     17.399999    102.099981      1.570655
     17.450002    101.142795      1.570197
     17.499974    100.186721      1.569601
     17.549976     99.229818      1.569126
     17.599978     98.268505      1.568576
     17.649981     97.314822      1.567837
     17.699982     96.361291      1.567172
     17.749984     95.407286      1.566513
     17.799987     94.452244      1.565981
     17.849989     93.500543      1.565318
     17.899992     92.554288      1.564539
     17.949994     91.597067      1.563655
     17.999995     90.644013      1.562859
     18.049998     89.681893      1.562020
     18.100000     88.726262      1.561082
     18.150002     87.771588      1.560178
     18.199974     86.819607      1.559485
     18.249976     85.865777      1.558618
     18.299978     84.898685      1.557532
     18.349979     83.942852      1.556433
     18.399982     82.987996      1.555566
     18.449984     82.032189      1.554663
     18.499986     81.081019      1.553606
     18.549989     80.133411      1.552595
     18.599991     79.174362      1.551562
     18.649993     78.212339      1.550449
     18.699995     77.257406      1.549326
     18.749997     76.309464      1.548254
     18.800000     75.354996      1.547289
     18.850002     74.397096      1.546420
     18.899973     73.445263      1.545639
     18.949975     72.482411      1.544691
     18.999978     71.513914      1.543778
     19.049980     70.561088      1.542833
     19.099982     69.607108      1.541861
     19.149985     68.658803      1.540742
     19.199986     67.702178      1.539735
     19.249988     66.744167      1.538645
     19.299991     65.790404      1.537664
     19.349993     64.834359      1.536599
     19.399996     63.876261      1.535579
     19.449998     62.928522      1.534416
     19.499999     61.974237      1.533187
     19.550002     61.012840      1.532081
     19.599974     60.048704      1.530902
     19.649976     59.094311      1.529720
     19.699978     58.130375      1.528533
     19.749981     57.176771      1.527526
     19.799982     56.219650      1.526070
     19.849984     55.262414      1.524760
     19.899987     54.309347      1.523398
     19.949989     53.355761      1.521745
     19.999992     52.401706      1.520257
     20.049994     51.445399      1.518735
     20.099995     50.495000      1.517060
     20.149998     49.546256      1.515369
     20.200000     48.595338      1.513969
     20.250002     47.645517      1.512465
     20.299974     46.690579      1.510868
     20.349977     45.736528      1.508942
     20.399978     44.779004      1.507086
     20.449980     43.826899      1.505416
     20.499983     42.872347      1.503425
     20.549985     41.916813      1.501572
     20.599987     40.959175      1.499416
     20.649989     40.001474      1.497353
     20.699991     39.044327      1.495375
     20.749994     38.094392      1.493289
     20.799996     37.142403      1.491229
     20.849998     36.184904      1.489008
     20.900001     35.234041      1.486521
     20.950002     34.280608      1.483978
     20.999974     33.324860      1.481750
     21.049976     32.373742      1.479501
     21.099979     31.416417      1.477599
     21.149981     30.460219      1.475826
     21.199983     29.503813      1.473681
     21.249985     28.553936      1.471506
     21.299987     27.605050      1.469427
     21.349989     26.639357      1.467128
     21.399992     25.690276      1.464937
     21.449994     24.738446      1.462477
     21.499997     23.777427      1.460263
     21.549998     22.815462      1.458026
     21.600000     21.858750      1.455708
     21.650003     20.908597      1.453439
     21.699975     19.949697      1.450969
     21.749977     19.001847      1.448441
     21.799979     18.055397      1.445738
     21.849981     17.096779      1.442940
     21.899983     16.142469      1.440360
     21.949985     15.187763      1.437672
     21.999988     14.235753      1.435131
     22.049990     13.280065      1.432600
     22.099992     12.321678      1.429833
     22.149994     11.355979      1.426733
     22.199996     10.393464      1.423638
     22.249999      9.434426      1.419998
     22.300001      8.483400      1.411106
     22.349973      7.546298      1.364102
     22.399974      6.592432      1.242390
     22.449977      5.847479      1.049657
     22.499979      5.278341      0.831702
     22.549981      4.838140      0.660506
     22.599984      4.540837      0.594139
     22.649986      4.360546      0.591965
     22.699987      4.306928      0.627913
     22.749990      4.348396      0.681689
     22.799992      4.479101      0.741745
     22.849995      4.681577      0.801778
     22.899997      4.976721      0.859530
     22.949999      5.325360      0.913216
     23.000001      5.743507      0.962754
     23.050003      6.213225      1.008010
     23.099975      6.729966      1.049350
     23.149977      7.298184      1.086984
     23.199980      7.891369      1.121160
     23.249982      8.542425      1.152040
     23.299983      9.197956      1.180198
     23.349986      9.893526      1.205785
     23.399988     10.618418      1.229301
     23.449990     11.373972      1.250649
     23.499993     12.137589      1.269862
     23.549995     12.923724      1.287397
     23.599997     13.727682      1.303546
     23.649998     14.547681      1.318263
     23.700000     15.375403      1.331752
     23.750003     16.218622      1.344014
     23.799975     17.083110      1.355294
     23.849977     17.947822      1.365569
     23.899979     18.824330      1.374938
     23.949981     19.698638      1.383553
     23.999983     20.581341      1.391612
     24.049985     21.475264      1.398987
     24.099988     22.381113      1.406051
     24.149990     23.283660      1.412532
     24.199993     24.203375      1.418547
     24.249994     25.115959      1.424266
     24.299996     26.044708      1.429596
     24.349999     26.967864      1.434516
     24.400001     27.896973      1.439187
     24.449973     28.827776      1.443941
     24.499974     29.759495      1.448341
