Shimadzu measurement
Filename
749Labor_aprilis_14_Acel.dat
Identifier
2mN/s meres
Date 2016:4:14
Time 10:18
Indentsize=0 [æm]
 Time [s]         Load [mN]       Displ [æm] 
*****************************************************************

      0.050003     -0.001659      0.001236
      0.100005      0.002951      0.006925
      0.150007     -0.008769      0.012595
      0.200009     -0.009551      0.019652
      0.250011      0.083740      0.028383
      0.300014      0.267802      0.037644
      0.350016      0.526843      0.047201
      0.399988      0.837495      0.057022
      0.449990      1.222064      0.068059
      0.499992      1.660951      0.079884
      0.549994      2.157880      0.091564
      0.599996      2.689956      0.103113
      0.649999      3.266482      0.114546
      0.700001      3.890948      0.126239
      0.750002      4.531704      0.137800
      0.800005      5.212756      0.149548
      0.850007      5.923361      0.161281
      0.900010      6.650186      0.173000
      0.950012      7.403818      0.184646
      1.000014      8.179745      0.196104
      1.050016      8.966581      0.207759
      1.100018      9.777274      0.219774
      1.149990     10.599063      0.234189
      1.199992     11.439992      0.249726
      1.249995     12.288993      0.264930
      1.299997     13.147700      0.279895
      1.349998     14.020635      0.294707
      1.400001     14.900272      0.309258
      1.450003     15.789604      0.324246
      1.500005     16.687049      0.339445
      1.550008     17.580811      0.354954
      1.600010     18.484076      0.370988
      1.650012     19.394671      0.387189
      1.700014     20.297216      0.403295
      1.750016     21.216930      0.419683
      1.799988     22.141110      0.436568
      1.849990     23.068088      0.454023
      1.899993     24.005519      0.471625
      1.949994     24.934658      0.489725
      1.999997     25.867319      0.507724
      2.049999     26.804983      0.525754
      2.100001     27.744097      0.543446
      2.150004     28.682684      0.561078
      2.200006     29.615915      0.578839
      2.250007     30.560805      0.596471
      2.300010     31.500929      0.614477
      2.350012     32.444088      0.632757
      2.400015     33.402186      0.651041
      2.450017     34.345652      0.669327
      2.499988     35.297312      0.687432
      2.549990     36.242308      0.705741
      2.599993     37.194735      0.723928
      2.649995     38.140422      0.742555
      2.699997     39.086146      0.761273
      2.750000     40.030682      0.780010
      2.800001     40.983916      0.799071
      2.850003     41.933381      0.817874
      2.900006     42.889830      0.836567
      2.950008     43.844629      0.855222
      3.000041     44.794282      0.873964
      3.050012     45.744796      0.892663
      3.100014     46.696085      0.911080
      3.150016     47.653565      0.929302
      3.200018     48.609293      0.947411
      3.249990     49.556120      0.965480
      3.299992     50.517518      0.983572
      3.349995     51.470058      1.001626
      3.399997     52.418288      1.019461
      3.449998     53.371794      1.037160
      3.500001     54.328217      1.054921
      3.550003     55.282384      1.072370
      3.600005     56.236350      1.089967
      3.650008     57.188304      1.107513
      3.700010     58.143332      1.125196
      3.750012     59.096852      1.142882
      3.800014     60.049626      1.160324
      3.850016     61.013325      1.177548
      3.899988     61.960002      1.194881
      3.949990     62.922486      1.212251
      3.999993     63.868068      1.229471
      4.049994     64.828347      1.246860
      4.099997     65.790256      1.264098
      4.149999     66.740814      1.281199
      4.200001     67.695195      1.298421
      4.250004     68.649354      1.315568
      4.300006     69.606975      1.332527
      4.350007     70.562830      1.349316
      4.400010     71.512213      1.366135
      4.450012     72.464925      1.382798
      4.500015     73.419413      1.399382
      4.550017     74.370006      1.415589
      4.599988     75.327471      1.431762
      4.649990     76.280132      1.448088
      4.699993     77.238848      1.464063
      4.749995     78.190805      1.479844
      4.799997     79.144002      1.495268
      4.850000     80.100149      1.510188
      4.900001     81.054676      1.525141
      4.950003     82.010188      1.539697
      5.000006     82.969026      1.553958
      5.050008     83.922315      1.568013
      5.100010     84.871828      1.581640
      5.150013     85.827711      1.595063
      5.200014     86.782000      1.608243
      5.250017     87.741570      1.620959
      5.299988     88.700400      1.633502
      5.349991     89.657342      1.645645
      5.399993     90.611364      1.657551
      5.449996     91.568863      1.669243
      5.499997     92.527049      1.680437
      5.549999     93.484023      1.691549
      5.600002     94.431970      1.702160
      5.650004     95.382780      1.712687
      5.700006     96.338609      1.722954
      5.750009     97.298343      1.732988
      5.800010     98.249386      1.742691
      5.850013     99.212748      1.751972
      5.900015    100.170717      1.761058
      5.950017    101.126885      1.769845
      5.999989    102.076549      1.778364
      6.049990    103.029515      1.786580
      6.099993    103.984841      1.794769
      6.149995    104.934359      1.802626
      6.199998    105.889634      1.810431
      6.250000    106.846428      1.817821
      6.300002    107.798488      1.825021
      6.350004    108.751168      1.832295
      6.400006    109.708679      1.839574
      6.450008    110.666876      1.846553
      6.500011    111.623859      1.853077
      6.550013    112.577308      1.859682
      6.600016    113.528188      1.866236
      6.650017    114.475533      1.872624
      6.699989    115.435568      1.879105
      6.749991    116.389322      1.885182
      6.799994    117.345969      1.890956
      6.849996    118.301557      1.896825
      6.899998    119.261075      1.902839
      6.950000    120.226571      1.908679
      7.000002    121.174255      1.914606
      7.050004    122.124827      1.920673
      7.100007    123.081052      1.926561
      7.150009    124.033820      1.932348
      7.200011    124.999344      1.937861
      7.250013    125.959259      1.943190
      7.300015    126.912906      1.948474
      7.350018    127.863353      1.953412
      7.399989    128.824348      1.958345
      7.449992    129.779576      1.963334
      7.499994    130.736940      1.968130
      7.549996    131.690121      1.972995
      7.599998    132.645032      1.977740
      7.650000    133.596615      1.982498
      7.700003    134.547037      1.986964
      7.750005    135.498853      1.991289
      7.800006    136.454365      1.995852
      7.850009    137.410764      2.000630
      7.900011    138.368570      2.005603
      7.950014    139.321539      2.010566
      8.000016    140.268935      2.015460
      8.049988    141.225962      2.020231
      8.099989    142.178841      2.025013
      8.149991    143.135311      2.029622
      8.199994    144.092571      2.034136
      8.249996    145.054814      2.038931
      8.299999    146.000790      2.043552
      8.350000    146.954709      2.048016
      8.400002    147.912725      2.052950
      8.450004    148.864662      2.057267
      8.500006    149.828219      2.061947
      8.550008    150.786975      2.066525
      8.600011    151.738357      2.071316
      8.650013    152.695310      2.075995
      8.700016    153.651174      2.080510
      8.750017    154.606668      2.085429
      8.799989    155.563660      2.089917
      8.849991    156.522000      2.094627
      8.899994    157.479112      2.099111
      8.949996    158.445495      2.103635
      8.999998    159.401911      2.108438
      9.050000    160.358512      2.113067
      9.100002    161.314669      2.117720
      9.150004    162.272868      2.122214
      9.200007    163.228633      2.126503
      9.250009    164.188920      2.130850
      9.300011    165.149005      2.135435
      9.350013    166.108298      2.139927
      9.400015    167.065047      2.144398
      9.450018    168.028662      2.148482
      9.499989    168.977093      2.152951
      9.549992    169.933221      2.157218
      9.599994    170.886512      2.161546
      9.649996    171.837859      2.165685
      9.699998    172.805767      2.169777
      9.750000    173.768438      2.173765
      9.800003    174.734331      2.177842
      9.850005    175.694579      2.182122
      9.900006    176.653408      2.186340
      9.950009    177.616453      2.190442
     10.000011    178.574137      2.194621
     10.050014    179.533711      2.198505
     10.100016    180.500478      2.202550
     10.149988    181.467006      2.206495
     10.199989    182.428435      2.210473
     10.249991    183.299214      2.214298
     10.299994    184.078643      2.218045
     10.349996    184.774025      2.221662
     10.399999    185.402921      2.225222
     10.450001    185.975641      2.228365
     10.500002    186.489258      2.231865
     10.550005    186.955176      2.234832
     10.600007    187.373281      2.237441
     10.650009    187.739200      2.240156
     10.700012    188.079513      2.242477
     10.750014    188.387015      2.244627
     10.800016    188.651560      2.246501
     10.850018    188.893313      2.248432
     10.899990    189.105397      2.250353
     10.949992    189.295052      2.251959
     10.999995    189.477949      2.253466
     11.049997    189.640115      2.254639
     11.099998    189.779960      2.256183
     11.150001    189.918029      2.257329
     11.200003    190.036186      2.258543
     11.250005    190.146190      2.259453
     11.300008    190.242142      2.260271
     11.350010    190.329109      2.261252
     11.400011    190.404938      2.262196
     11.450014    190.475626      2.262985
     11.500016    190.543517      2.263999
     11.549988    190.599126      2.264546
     11.599990    190.656498      2.265344
     11.649992    190.702640      2.266062
     11.699994    190.745388      2.266586
     11.749997    190.774707      2.267179
     11.799999    190.802924      2.267653
     11.850001    190.839306      2.268262
     11.900004    190.859843      2.269054
     11.950005    190.884430      2.269523
     12.000007    190.897402      2.269884
     12.050010    190.924336      2.270148
     12.100012    190.944915      2.270446
     12.150015    190.957332      2.270471
     12.200017    190.986819      2.270859
     12.249988    190.995046      2.271208
     12.299990    191.014047      2.271523
     12.349992    190.920062      2.271379
     12.399995    190.745142      2.271310
     12.449997    190.483953      2.271370
     12.500000    190.159771      2.271424
     12.550001    189.768517      2.271473
     12.600003    189.316900      2.271578
     12.650006    188.821332      2.271550
     12.700008    188.280715      2.271403
     12.750010    187.692230      2.271088
     12.800013    187.071039      2.270621
     12.850014    186.411257      2.270079
     12.900017    185.720406      2.269774
     12.949988    185.000373      2.269316
     12.999991    184.254684      2.268965
     13.049993    183.493232      2.268466
     13.099994    182.712708      2.268079
     13.149997    181.909527      2.267668
     13.199999    181.099993      2.267238
     13.250002    180.268261      2.266668
     13.300004    179.423876      2.266277
     13.350006    178.580310      2.265742
     13.400008    177.713066      2.265016
     13.450010    176.837941      2.264302
     13.500012    175.956944      2.263598
     13.550015    175.071271      2.262781
     13.600017    174.176508      2.262046
     13.650020    173.277225      2.260897
     13.699990    172.375096      2.259984
     13.749992    171.459419      2.258735
     13.799994    170.540703      2.257611
     13.849997    169.626577      2.256295
     13.899999    168.706817      2.254988
     13.950001    167.780764      2.253873
     14.000004    166.854542      2.252625
     14.050005    165.910467      2.251379
     14.100007    164.975959      2.250015
     14.150010    164.036634      2.248847
     14.200012    163.091142      2.247553
     14.250015    162.154138      2.246449
     14.300017    161.216839      2.245272
     14.349988    160.271950      2.244090
     14.399990    159.317789      2.243088
     14.449992    158.364438      2.241637
     14.499995    157.421582      2.240209
     14.549997    156.467419      2.238862
     14.600000    155.511625      2.237346
     14.650001    154.561077      2.236102
     14.700003    153.605484      2.234617
     14.750006    152.650845      2.233464
     14.800008    151.695843      2.232670
     14.850010    150.742346      2.231650
     14.900013    149.790813      2.230183
     14.950014    148.843490      2.228863
     15.000017    147.888969      2.227674
     15.049988    146.942008      2.226239
     15.099991    145.992696      2.224702
     15.149993    145.034553      2.223198
     15.199995    144.075788      2.221965
     15.249997    143.121345      2.220673
     15.299999    142.165299      2.219327
     15.350002    141.205979      2.217933
     15.400004    140.251038      2.216312
     15.450006    139.295153      2.214669
     15.500008    138.341471      2.213191
     15.550010    137.394656      2.211617
     15.600012    136.437539      2.210383
     15.650015    135.477867      2.208906
     15.700017    134.524438      2.207639
     15.749989    133.573578      2.206558
     15.799990    132.622587      2.205525
     15.849993    131.664155      2.204412
     15.899995    130.713064      2.203044
     15.949998    129.762475      2.201874
     16.000000    128.807457      2.200516
     16.050002    127.856387      2.199172
     16.100004    126.894221      2.197840
     16.150006    125.946483      2.196397
     16.200008    124.993419      2.194915
     16.250011    124.034342      2.193398
     16.300013    123.076567      2.192033
     16.350016    122.124846      2.190621
     16.400017    121.161485      2.189168
     16.449989    120.210840      2.187737
     16.499991    119.250887      2.186145
     16.549993    118.291104      2.184834
     16.599996    117.339406      2.183532
     16.649998    116.380338      2.182054
     16.700000    115.431116      2.180664
     16.750002    114.473665      2.179046
     16.800004    113.514301      2.177408
     16.850007    112.559320      2.175688
     16.900009    111.599127      2.174141
     16.950010    110.639737      2.172749
     17.000013    109.688394      2.171190
     17.050015    108.740632      2.169849
     17.100018    107.782663      2.168458
     17.149989    106.832600      2.167145
     17.199992    105.876833      2.165781
     17.249993    104.925089      2.164248
     17.299995    103.972082      2.162807
     17.349998    103.013666      2.161327
     17.400000    102.055265      2.159690
     17.450003    101.099320      2.158095
     17.500005    100.144973      2.156171
     17.550006     99.189623      2.154744
     17.600009     98.235814      2.152972
     17.650011     97.278506      2.151194
     17.700013     96.321713      2.149471
     17.750016     95.370266      2.147616
     17.799988     94.412644      2.145885
     17.849989     93.459840      2.144144
     17.899991     92.505269      2.142334
     17.949994     91.556433      2.140460
     17.999996     90.592004      2.138773
     18.049999     89.635516      2.137072
     18.100001     88.686175      2.135236
     18.150002     87.732889      2.133400
     18.200005     86.774223      2.131382
     18.250007     85.820479      2.129505
     18.300009     84.875438      2.127754
     18.350012     83.924192      2.125873
     18.400014     82.975906      2.124302
     18.450015     82.013194      2.122278
     18.500018     81.057030      2.120518
     18.549990     80.109811      2.118506
     18.599992     79.151112      2.116757
     18.649994     78.196728      2.114816
     18.699996     77.248059      2.112642
     18.749998     76.291107      2.110502
     18.800001     75.335854      2.108210
     18.850003     74.374806      2.106208
     18.900005     73.418309      2.104102
     18.950008     72.463466      2.101839
     19.000009     71.507061      2.099498
     19.050011     70.548638      2.097025
     19.100013     69.596334      2.094555
     19.150015     68.644044      2.092149
     19.200018     67.696650      2.089617
     19.249989     66.739623      2.086972
     19.299992     65.777590      2.084408
     19.349993     64.819596      2.081430
     19.399995     63.862184      2.078322
     19.449998     62.905908      2.074915
     19.500000     61.940277      2.071421
     19.550003     60.982708      2.067788
     19.600005     60.036055      2.063847
     19.650006     59.085188      2.060056
     19.700009     58.126868      2.055972
     19.750011     57.174047      2.051687
     19.800013     56.223732      2.047281
     19.850016     55.269571      2.042583
     19.899988     54.317441      2.037744
     19.949989     53.364086      2.032718
     19.999991     52.410851      2.027462
     20.049994     51.460164      2.021816
     20.099996     50.506889      2.016125
     20.149999     49.542127      2.010209
     20.200001     48.587171      2.003847
     20.250002     47.639208      1.997450
     20.300005     46.679838      1.990960
     20.350007     45.723631      1.984265
     20.400009     44.764776      1.977262
     20.450012     43.814525      1.969800
     20.500014     42.858590      1.962169
     20.550015     41.890214      1.953958
     20.600018     40.932615      1.945714
     20.649990     39.979222      1.937073
     20.699992     39.022290      1.927771
     20.749994     38.070717      1.917812
     20.799996     37.119085      1.907384
     20.849998     36.164959      1.896533
     20.900001     35.205536      1.885486
     20.950003     34.247449      1.874140
     21.000005     33.296059      1.862159
     21.050008     32.339708      1.849056
     21.100009     31.383165      1.834334
     21.150011     30.434385      1.818460
     21.200014     29.478553      1.800632
     21.250016     28.517594      1.780987
     21.299988     27.569112      1.759766
     21.349990     26.615989      1.736761
     21.399992     25.661131      1.712821
     21.449994     24.700439      1.687857
     21.499996     23.735717      1.661850
     21.549999     22.793003      1.634598
     21.600001     21.832864      1.605737
     21.650004     20.881458      1.574941
     21.700005     19.920821      1.543074
     21.750007     18.966524      1.509816
     21.800010     18.015493      1.475428
     21.850012     17.058855      1.440024
     21.900014     16.108768      1.403521
     21.950017     15.159084      1.366151
     21.999988     14.199997      1.328307
     22.049990     13.244653      1.289914
     22.099992     12.288408      1.250356
     22.149995     11.344777      1.210480
     22.199997     10.383204      1.168306
     22.250000      9.426844      1.125588
     22.300001      8.475176      1.070784
     22.350003      7.539328      0.980628
     22.400006      6.603069      0.797434
     22.450008      5.665220      0.469167
     22.500010      4.893178     -0.049971
     22.550012      4.317361     -0.621506
     22.600014      3.874810     -1.160912
     22.650016      3.584549     -1.481703
     22.699988      3.402050     -1.592249
     22.749991      3.334237     -1.497647
     22.799993      3.362319     -1.338468
     22.849994      3.496848     -1.157975
     22.899997      3.699711     -0.978257
     22.949999      3.985440     -0.807845
     23.000002      4.335980     -0.649774
     23.050004      4.759501     -0.504946
     23.100006      5.236496     -0.372649
     23.150008      5.742087     -0.251994
     23.200010      6.294776     -0.142611
     23.250012      6.894127     -0.042457
     23.300015      7.533031      0.048902
     23.350017      8.203262      0.132224
     23.399989      8.902906      0.209960
     23.449990      9.626582      0.282791
     23.499993     10.376158      0.350842
     23.549995     11.136837      0.414468
     23.599997     11.925820      0.474173
     23.650000     12.731731      0.528640
     23.700002     13.544944      0.579674
     23.750004     14.368999      0.628352
     23.800006     15.208917      0.675396
     23.850008     16.063112      0.720727
     23.900011     16.928934      0.764760
     23.950013     17.807052      0.808845
     24.000014     18.692575      0.851146
